square,location,corrAns,thisN,thisTrialN,thisRepN,response.keys,response.corr,response.rt,response.duration,response_2.keys,response_2.corr,response_2.rt,response_2.duration,trials.thisRepN,trials.thisTrialN,trials.thisN,trials.thisIndex,trials_2.thisRepN,trials_2.thisTrialN,trials_2.thisN,trials_2.thisIndex,thisRow.t,notes,Instructions.started,instructions.started,key_resp.started,Instructions.stopped,key_resp.keys,key_resp.rt,key_resp.duration,Fixation.started,fixation_1.started,fixation_1.stopped,Fixation.stopped,N_back_1_Trial.started,grid_lines.started,target_square.started,response.started,fixation_2.started,target_square.stopped,fixation_2.stopped,N_back_1_Trial.stopped,trials.response.keys,trials.response.corr,trials.response.rt,trials.response.duration,Instructions_2.started,instructions_2.started,key_resp_2.started,Instructions_2.stopped,key_resp_2.keys,key_resp_2.rt,key_resp_2.duration,N_back_2_trials.started,grid_lines_2.started,target_square_2.started,response_2.started,target_square_2.stopped,fixation_3.started,grid_lines_2.stopped,fixation_3.stopped,response_2.stopped,N_back_2_trials.stopped,trials_2.response_2.keys,trials_2.response_2.corr,trials_2.response_2.rt,trials_2.response_2.duration,End.started,thank_you.started,End.stopped,participant,session,date,expName,psychopyVersion,frameRate,expStart,
,,,,,,,,,,,,,,,,,,,,,,,,0.0024818999227136374,0.02086369995959103,0.02086369995959103,1.641350599937141,space,1.60936360002961,None,,,,,,,,,,,,,,,,,,,,,,,,,,,,,,,,,,,,,,,,,test3,001,2025-03-08_23h44.17.656,untitled,2024.2.4,59.71496849703812,2025-03-08 23h44.23.579052 +0500,
,,,,,,,,,,,,,,,,,,,,,,,,,,,,,,,1.641398899955675,1.6546007000142708,2.6839840000029653,2.638790199998766,,,,,,,,,,,,,,,,,,,,,,,,,,,,,,,,,,,,,test3,001,2025-03-08_23h44.17.656,untitled,2024.2.4,59.71496849703812,2025-03-08 23h44.23.579052 +0500,
6,"[0.2, 0]",None,0,0,0,None,1,,,,,,,0,0,0,0,,,,,2.6839840000029653,,,,,,,,,,,,,2.6664463999914005,2.6839840000029653,2.6839840000029653,2.6839840000029653,3.6544018000131473,3.6877924000145867,4.655137399910018,4.655328399967402,None,1,,,,,,,,,,,,,,,,,,,,,,,,,,,test3,001,2025-03-08_23h44.17.656,untitled,2024.2.4,59.71496849703812,2025-03-08 23h44.23.579052 +0500,
6,"[0.2, 0]",space,1,1,0,space,1,1.0331871999660507,0.10233189992140979,,,,,0,1,1,1,,,,,4.671170399989933,,,,,,,,,,,,,4.655736499931663,4.671170399989933,4.671170399989933,4.671170399989933,5.654492600006051,5.671220199903473,6.654270899947733,6.654444399988279,space,1,1.0331871999660507,0.10233189992140979,,,,,,,,,,,,,,,,,,,,,,,,,test3,001,2025-03-08_23h44.17.656,untitled,2024.2.4,59.71496849703812,2025-03-08 23h44.23.579052 +0500,
2,"[0, 0.2]",None,2,2,0,None,1,,,,,,,0,2,2,2,,,,,6.670925699989311,,,,,,,,,,,,,6.654799000010826,6.670925699989311,6.670925699989311,6.670925699989311,7.654413799988106,7.671142200008035,8.654412099975161,8.654596299980767,None,1,,,,,,,,,,,,,,,,,,,,,,,,,,,test3,001,2025-03-08_23h44.17.656,untitled,2024.2.4,59.71496849703812,2025-03-08 23h44.23.579052 +0500,
9,"[0.2, -0.2]",None,3,3,0,None,1,,,,,,,0,3,3,3,,,,,8.671128899906762,,,,,,,,,,,,,8.65499589999672,8.671128899906762,8.671128899906762,8.671128899906762,9.654360799933784,9.671167299966328,10.654623699956574,10.654812299995683,None,1,,,,,,,,,,,,,,,,,,,,,,,,,,,test3,001,2025-03-08_23h44.17.656,untitled,2024.2.4,59.71496849703812,2025-03-08 23h44.23.579052 +0500,
9,"[0.2, -0.2]",space,4,4,0,space,1,0.4243900999426842,0.16118890000507236,,,,,0,4,4,4,,,,,10.671106999972835,,,,,,,,,,,,,10.655234499950893,10.671106999972835,10.671106999972835,10.671106999972835,11.654393599950708,11.670863499981351,12.654320999979973,12.654539500013925,space,1,0.4243900999426842,0.16118890000507236,,,,,,,,,,,,,,,,,,,,,,,,,test3,001,2025-03-08_23h44.17.656,untitled,2024.2.4,59.71496849703812,2025-03-08 23h44.23.579052 +0500,
6,"[0.2, 0]",None,5,5,0,None,1,,,,,,,0,5,5,5,,,,,12.671084699919447,,,,,,,,,,,,,12.654958699946292,12.671084699919447,12.671084699919447,12.671084699919447,13.654346499941312,13.67086409998592,14.654395599965937,14.654588699922897,None,1,,,,,,,,,,,,,,,,,,,,,,,,,,,test3,001,2025-03-08_23h44.17.656,untitled,2024.2.4,59.71496849703812,2025-03-08 23h44.23.579052 +0500,
4,"[-0.2, 0]",None,6,6,0,None,1,,,,,,,0,6,6,6,,,,,14.671008299919777,,,,,,,,,,,,,14.655006299959496,14.671008299919777,14.671008299919777,14.671008299919777,15.654213499976322,15.670809399918653,16.654338699998334,16.654548899969086,None,1,,,,,,,,,,,,,,,,,,,,,,,,,,,test3,001,2025-03-08_23h44.17.656,untitled,2024.2.4,59.71496849703812,2025-03-08 23h44.23.579052 +0500,
3,"[0.2, 0.2]",None,7,7,0,None,1,,,,,,,0,7,7,7,,,,,16.670936599955894,,,,,,,,,,,,,16.654970499919727,16.670936599955894,16.670936599955894,16.670936599955894,17.654041099944152,17.67100339999888,18.654278700007126,18.654459199984558,None,1,,,,,,,,,,,,,,,,,,,,,,,,,,,test3,001,2025-03-08_23h44.17.656,untitled,2024.2.4,59.71496849703812,2025-03-08 23h44.23.579052 +0500,
3,"[0.2, 0.2]",space,8,8,0,space,1,0.45162449998315424,0.1466015001060441,,,,,0,8,8,8,,,,,18.67120929993689,,,,,,,,,,,,,18.65482419996988,18.67120929993689,18.67120929993689,18.67120929993689,19.654327199910767,19.670836600009352,20.654236299917102,20.654457099968567,space,1,0.45162449998315424,0.1466015001060441,,,,,,,,,,,,,,,,,,,,,,,,,test3,001,2025-03-08_23h44.17.656,untitled,2024.2.4,59.71496849703812,2025-03-08 23h44.23.579052 +0500,
8,"[0, -0.2]",None,9,9,0,None,1,,,,,,,0,9,9,9,,,,,20.67094400001224,,,,,,,,,,,,,20.654874600004405,20.67094400001224,20.67094400001224,20.67094400001224,21.654303599963896,21.670945899910294,22.65416659996845,22.654360199929215,None,1,,,,,,,,,,,,,,,,,,,,,,,,,,,test3,001,2025-03-08_23h44.17.656,untitled,2024.2.4,59.71496849703812,2025-03-08 23h44.23.579052 +0500,
1,"[-0.2, 0.2]",None,10,10,0,None,1,,,,,,,0,10,10,10,,,,,22.67120919993613,,,,,,,,,,,,,22.654821899952367,22.67120919993613,22.67120919993613,22.67120919993613,23.654184099985287,23.671017099986784,24.654302299953997,24.65452669991646,None,1,,,,,,,,,,,,,,,,,,,,,,,,,,,test3,001,2025-03-08_23h44.17.656,untitled,2024.2.4,59.71496849703812,2025-03-08 23h44.23.579052 +0500,
2,"[0, 0.2]",None,11,11,0,None,1,,,,,,,0,11,11,11,,,,,24.67071340000257,,,,,,,,,,,,,24.655010499991477,24.67071340000257,24.67071340000257,24.67071340000257,25.654514999943785,25.670646599959582,26.654245599987917,26.654420299921185,None,1,,,,,,,,,,,,,,,,,,,,,,,,,,,test3,001,2025-03-08_23h44.17.656,untitled,2024.2.4,59.71496849703812,2025-03-08 23h44.23.579052 +0500,
4,"[-0.2, 0]",None,12,12,0,None,1,,,,,,,0,12,12,12,,,,,26.67089109995868,,,,,,,,,,,,,26.65482900000643,26.67089109995868,26.67089109995868,26.67089109995868,27.653987600002438,27.67071719991509,28.654234399902634,28.65442339994479,None,1,,,,,,,,,,,,,,,,,,,,,,,,,,,test3,001,2025-03-08_23h44.17.656,untitled,2024.2.4,59.71496849703812,2025-03-08 23h44.23.579052 +0500,
4,"[-0.2, 0]",space,13,13,0,space,1,0.4221504000015557,0.15988420008216053,,,,,0,13,13,13,,,,,28.670825599925593,,,,,,,,,,,,,28.65482980001252,28.670825599925593,28.670825599925593,28.670825599925593,29.65410249994602,29.6706868999172,30.654304799973033,30.654532799962908,space,1,0.4221504000015557,0.15988420008216053,,,,,,,,,,,,,,,,,,,,,,,,,test3,001,2025-03-08_23h44.17.656,untitled,2024.2.4,59.71496849703812,2025-03-08 23h44.23.579052 +0500,
8,"[0, -0.2]",None,14,14,0,None,1,,,,,,,0,14,14,14,,,,,30.670887099928223,,,,,,,,,,,,,30.654966300004162,30.670887099928223,30.670887099928223,30.670887099928223,31.65392999991309,31.670715499902144,32.65407209994737,32.654265499906614,None,1,,,,,,,,,,,,,,,,,,,,,,,,,,,test3,001,2025-03-08_23h44.17.656,untitled,2024.2.4,59.71496849703812,2025-03-08 23h44.23.579052 +0500,
5,"[0, 0]",None,15,15,0,None,1,,,,,,,0,15,15,15,,,,,32.670676599955186,,,,,,,,,,,,,32.654644199996255,32.670676599955186,32.670676599955186,32.670676599955186,33.65383149997797,33.67064069991466,34.65390469995327,34.65407779999077,None,1,,,,,,,,,,,,,,,,,,,,,,,,,,,test3,001,2025-03-08_23h44.17.656,untitled,2024.2.4,59.71496849703812,2025-03-08 23h44.23.579052 +0500,
5,"[0, 0]",space,16,16,0,space,1,0.4609700000146404,0.1312613000627607,,,,,0,16,16,16,,,,,34.67076479992829,,,,,,,,,,,,,34.6544551999541,34.67076479992829,34.67076479992829,34.67076479992829,35.653926500002854,35.67062140000053,36.653882100014016,36.65407229994889,space,1,0.4609700000146404,0.1312613000627607,,,,,,,,,,,,,,,,,,,,,,,,,test3,001,2025-03-08_23h44.17.656,untitled,2024.2.4,59.71496849703812,2025-03-08 23h44.23.579052 +0500,
1,"[-0.2, 0.2]",None,17,17,0,None,1,,,,,,,0,17,17,17,,,,,36.67062419990543,,,,,,,,,,,,,36.654444199986756,36.67062419990543,36.67062419990543,36.67062419990543,37.653994699940085,37.67069359996822,38.65397689992096,38.65415680001024,None,1,,,,,,,,,,,,,,,,,,,,,,,,,,,test3,001,2025-03-08_23h44.17.656,untitled,2024.2.4,59.71496849703812,2025-03-08 23h44.23.579052 +0500,
3,"[0.2, 0.2]",None,18,18,0,None,1,,,,,,,0,18,18,18,,,,,38.67036719992757,,,,,,,,,,,,,38.654495899914764,38.67036719992757,38.67036719992757,38.67036719992757,39.65394089999609,39.6705370999407,40.65388019999955,40.654101499938406,None,1,,,,,,,,,,,,,,,,,,,,,,,,,,,test3,001,2025-03-08_23h44.17.656,untitled,2024.2.4,59.71496849703812,2025-03-08 23h44.23.579052 +0500,
6,"[0.2, 0]",None,19,19,0,None,1,,,,,,,0,19,19,19,,,,,40.67067109991331,,,,,,,,,,,,,40.65454039990436,40.67067109991331,40.67067109991331,40.67067109991331,41.65387549996376,41.670548599911854,42.653771799989045,42.65394649992231,None,1,,,,,,,,,,,,,,,,,,,,,,,,,,,test3,001,2025-03-08_23h44.17.656,untitled,2024.2.4,59.71496849703812,2025-03-08 23h44.23.579052 +0500,
1,"[-0.2, 0.2]",None,20,20,0,None,1,,,,,,,0,20,20,20,,,,,42.67036669992376,,,,,,,,,,,,,42.654341299901716,42.67036669992376,42.67036669992376,42.67036669992376,43.654093399993144,43.67060549999587,44.65391200000886,44.65412630001083,None,1,,,,,,,,,,,,,,,,,,,,,,,,,,,test3,001,2025-03-08_23h44.17.656,untitled,2024.2.4,59.71496849703812,2025-03-08 23h44.23.579052 +0500,
1,"[-0.2, 0.2]",space,21,21,0,space,1,0.4133115999866277,0.1404062999645248,,,,,0,21,21,21,,,,,44.6706586999353,,,,,,,,,,,,,44.65454169991426,44.6706586999353,44.6706586999353,44.6706586999353,45.653812199947424,45.670566399930976,46.653988700010814,46.65419289993588,space,1,0.4133115999866277,0.1404062999645248,,,,,,,,,,,,,,,,,,,,,,,,,test3,001,2025-03-08_23h44.17.656,untitled,2024.2.4,59.71496849703812,2025-03-08 23h44.23.579052 +0500,
1,"[-0.2, 0.2]",space,22,22,0,space,1,0.35707140003796667,0.13890399993397295,,,,,0,22,22,22,,,,,46.67062409990467,,,,,,,,,,,,,46.654679699917324,46.67062409990467,46.67062409990467,46.67062409990467,47.65391069999896,47.670654799905606,48.65382879995741,48.65401489997748,space,1,0.35707140003796667,0.13890399993397295,,,,,,,,,,,,,,,,,,,,,,,,,test3,001,2025-03-08_23h44.17.656,untitled,2024.2.4,59.71496849703812,2025-03-08 23h44.23.579052 +0500,
3,"[0.2, 0.2]",None,23,23,0,None,1,,,,,,,0,23,23,23,,,,,48.67048560001422,,,,,,,,,,,,,48.65446280001197,48.67048560001422,48.67048560001422,48.67048560001422,49.653705399949104,49.67032069992274,50.65365939994808,50.653801499982364,None,1,,,,,,,,,,,,,,,,,,,,,,,,,,,test3,001,2025-03-08_23h44.17.656,untitled,2024.2.4,59.71496849703812,2025-03-08 23h44.23.579052 +0500,
2,"[0, 0.2]",None,24,24,0,None,1,,,,,,,0,24,24,24,,,,,50.67020129994489,,,,,,,,,,,,,50.654150799964555,50.67020129994489,50.67020129994489,50.67020129994489,51.6537912999047,51.67036409990396,52.65388549992349,52.65410239994526,None,1,,,,,,,,,,,,,,,,,,,,,,,,,,,test3,001,2025-03-08_23h44.17.656,untitled,2024.2.4,59.71496849703812,2025-03-08 23h44.23.579052 +0500,
1,"[-0.2, 0.2]",None,25,25,0,None,1,,,,,,,0,25,25,25,,,,,52.670429199934006,,,,,,,,,,,,,52.65452859993093,52.670429199934006,52.670429199934006,52.670429199934006,53.65366379998159,53.67036499991082,54.65362799994182,54.653848899994045,None,1,,,,,,,,,,,,,,,,,,,,,,,,,,,test3,001,2025-03-08_23h44.17.656,untitled,2024.2.4,59.71496849703812,2025-03-08 23h44.23.579052 +0500,
7,"[-0.2, -0.2]",None,26,26,0,None,1,,,,,,,0,26,26,26,,,,,54.67035999998916,,,,,,,,,,,,,54.65425729996059,54.67035999998916,54.67035999998916,54.67035999998916,55.65364359994419,55.670493399957195,56.6538388999179,56.65403939993121,None,1,,,,,,,,,,,,,,,,,,,,,,,,,,,test3,001,2025-03-08_23h44.17.656,untitled,2024.2.4,59.71496849703812,2025-03-08 23h44.23.579052 +0500,
7,"[-0.2, -0.2]",space,27,27,0,space,1,0.3645289000123739,0.16427619999740273,,,,,0,27,27,27,,,,,56.67014880001079,,,,,,,,,,,,,56.65444399998523,56.67014880001079,56.67014880001079,56.67014880001079,57.65372479998041,57.67025530000683,58.653669499908574,58.65386059996672,space,1,0.3645289000123739,0.16427619999740273,,,,,,,,,,,,,,,,,,,,,,,,,test3,001,2025-03-08_23h44.17.656,untitled,2024.2.4,59.71496849703812,2025-03-08 23h44.23.579052 +0500,
2,"[0, 0.2]",None,28,28,0,None,1,,,,,,,0,28,28,28,,,,,58.67020169994794,,,,,,,,,,,,,58.65428679995239,58.67020169994794,58.67020169994794,58.67020169994794,59.65376259991899,59.670273699914105,60.65349900000729,60.65369389997795,None,1,,,,,,,,,,,,,,,,,,,,,,,,,,,test3,001,2025-03-08_23h44.17.656,untitled,2024.2.4,59.71496849703812,2025-03-08 23h44.23.579052 +0500,
6,"[0.2, 0]",None,29,29,0,None,1,,,,,,,0,29,29,29,,,,,60.67015179991722,,,,,,,,,,,,,60.654126700013876,60.67015179991722,60.67015179991722,60.67015179991722,61.65363339998294,61.67030789994169,62.6536145999562,62.653806699905545,None,1,,,,,,,,,,,,,,,,,,,,,,,,,,,test3,001,2025-03-08_23h44.17.656,untitled,2024.2.4,59.71496849703812,2025-03-08 23h44.23.579052 +0500,
,,,,,,,,,,,,,,,,,,,,,,,,,,,,,,,,,,,,,,,,,,,,,,,62.725480099907145,62.72938599996269,62.72938599996269,82.1212768999394,space,19.38851069996599,None,,,,,,,,,,,,,,,,,,test3,001,2025-03-08_23h44.17.656,untitled,2024.2.4,59.71496849703812,2025-03-08 23h44.23.579052 +0500,
,,,,,,,,,,,,,,,,,,,,,,,,,,,,,,,82.12131939991377,82.13634079997428,83.13643829990178,83.12063599994872,,,,,,,,,,,,,,,,,,,,,,,,,,,,,,,,,,,,,test3,001,2025-03-08_23h44.17.656,untitled,2024.2.4,59.71496849703812,2025-03-08 23h44.23.579052 +0500,
,"[0, 0]",None,0,0,0,,,,,None,1,,,,,,,0,0,0,0,83.13643829990178,,,,,,,,,,,,,,,,,,,,,,,,,,,,,,,,83.12762339995243,83.13643829990178,83.13643829990178,83.13643829990178,84.13666119996924,84.13666119996924,85.13636799994856,85.13636799994856,85.13636799994856,85.12071950000245,None,1,,,,,,test3,001,2025-03-08_23h44.17.656,untitled,2024.2.4,59.71496849703812,2025-03-08 23h44.23.579052 +0500,
,"[0, 0.2]",None,1,1,0,,,,,None,1,,,,,,,0,1,1,1,85.13636799994856,,,,,,,,,,,,,,,,,,,,,,,,,,,,,,,,85.12106949998997,85.13636799994856,85.13636799994856,85.13636799994856,86.13675379997585,86.13675379997585,87.13642929994967,87.13642929994967,87.13642929994967,87.12068229995202,None,1,,,,,,test3,001,2025-03-08_23h44.17.656,untitled,2024.2.4,59.71496849703812,2025-03-08 23h44.23.579052 +0500,
,"[0.2, 0]",None,2,2,0,,,,,None,1,,,,,,,0,2,2,2,87.13642929994967,,,,,,,,,,,,,,,,,,,,,,,,,,,,,,,,87.1210318999365,87.13642929994967,87.13642929994967,87.13642929994967,88.13645979994908,88.13645979994908,89.13628739991691,89.13628739991691,89.13628739991691,89.12045249994844,None,1,,,,,,test3,001,2025-03-08_23h44.17.656,untitled,2024.2.4,59.71496849703812,2025-03-08 23h44.23.579052 +0500,
,"[0.2, -0.2]",None,3,3,0,,,,,None,1,,,,,,,0,3,3,3,89.13628739991691,,,,,,,,,,,,,,,,,,,,,,,,,,,,,,,,89.12080599996261,89.13628739991691,89.13628739991691,89.13628739991691,90.1365591000067,90.1365591000067,91.13634929992259,91.13634929992259,91.13634929992259,91.12033339997288,None,1,,,,,,test3,001,2025-03-08_23h44.17.656,untitled,2024.2.4,59.71496849703812,2025-03-08 23h44.23.579052 +0500,
,"[0.2, 0.2]",None,4,4,0,,,,,None,1,,,,,,,0,4,4,4,91.13634929992259,,,,,,,,,,,,,,,,,,,,,,,,,,,,,,,,91.12076479999814,91.13634929992259,91.13634929992259,91.13634929992259,92.13646069995593,92.13646069995593,93.13631029997487,93.13631029997487,93.13631029997487,93.12048699997831,None,1,,,,,,test3,001,2025-03-08_23h44.17.656,untitled,2024.2.4,59.71496849703812,2025-03-08 23h44.23.579052 +0500,
,"[0.2, -0.2]",space,5,5,0,,,,,space,1,0.4477761999005452,0.10538260010071099,,,,,0,5,5,5,93.13631029997487,,,,,,,,,,,,,,,,,,,,,,,,,,,,,,,,93.12093039997853,93.13631029997487,93.13631029997487,93.13631029997487,94.13627289992291,94.13627289992291,95.13636889995541,95.13636889995541,95.13636889995541,95.1206349999411,space,1,0.4477761999005452,0.10538260010071099,,,,test3,001,2025-03-08_23h44.17.656,untitled,2024.2.4,59.71496849703812,2025-03-08 23h44.23.579052 +0500,
,"[-0.2, -0.2]",None,6,6,0,,,,,None,1,,,,,,,0,6,6,6,95.13636889995541,,,,,,,,,,,,,,,,,,,,,,,,,,,,,,,,95.1210592999123,95.13636889995541,95.13636889995541,95.13636889995541,96.13630379992537,96.13630379992537,97.13618849997874,97.13618849997874,97.13618849997874,97.12032939994242,None,1,,,,,,test3,001,2025-03-08_23h44.17.656,untitled,2024.2.4,59.71496849703812,2025-03-08 23h44.23.579052 +0500,
,"[-0.2, 0.2]",None,7,7,0,,,,,None,1,,,,,,,0,7,7,7,97.13618849997874,,,,,,,,,,,,,,,,,,,,,,,,,,,,,,,,97.12068269995507,97.13618849997874,97.13618849997874,97.13618849997874,98.1363743999973,98.1363743999973,99.13627039990388,99.13627039990388,99.13627039990388,99.12144139991142,None,1,,,,,,test3,001,2025-03-08_23h44.17.656,untitled,2024.2.4,59.71496849703812,2025-03-08 23h44.23.579052 +0500,
,"[0, 0]",None,8,8,0,,,,,None,1,,,,,,,0,8,8,8,99.13627039990388,,,,,,,,,,,,,,,,,,,,,,,,,,,,,,,,99.12175259995274,99.13627039990388,99.13627039990388,99.13627039990388,100.13621669996064,100.13621669996064,101.13605380000081,101.13605380000081,101.13605380000081,101.12051719997544,None,1,,,,,,test3,001,2025-03-08_23h44.17.656,untitled,2024.2.4,59.71496849703812,2025-03-08 23h44.23.579052 +0500,
,"[-0.2, -0.2]",None,9,9,0,,,,,None,1,,,,,,,0,9,9,9,101.13605380000081,,,,,,,,,,,,,,,,,,,,,,,,,,,,,,,,101.12088750000112,101.13605380000081,101.13605380000081,101.13605380000081,102.13630849996116,102.13630849996116,103.13621709996369,103.13621709996369,103.13621709996369,103.12043169990648,None,1,,,,,,test3,001,2025-03-08_23h44.17.656,untitled,2024.2.4,59.71496849703812,2025-03-08 23h44.23.579052 +0500,
,"[0, 0]",space,10,10,0,,,,,space,1,0.5247166999615729,0.1788020000094548,,,,,0,10,10,10,103.13621709996369,,,,,,,,,,,,,,,,,,,,,,,,,,,,,,,,103.12085639999714,103.13621709996369,103.13621709996369,103.13621709996369,104.13629239995498,104.13629239995498,105.13607179990504,105.13607179990504,105.13607179990504,105.12039409996942,space,1,0.5247166999615729,0.1788020000094548,,,,test3,001,2025-03-08_23h44.17.656,untitled,2024.2.4,59.71496849703812,2025-03-08 23h44.23.579052 +0500,
,"[0.2, 0]",None,11,11,0,,,,,space,0,0.594658299931325,0.14836680004373193,,,,,0,11,11,11,105.13607179990504,,,,,,,,,,,,,,,,,,,,,,,,,,,,,,,,105.12077659997158,105.13607179990504,105.13607179990504,105.13607179990504,106.13616369990632,106.13616369990632,107.13616140000522,107.13616140000522,107.13616140000522,107.1202683999436,space,0,0.594658299931325,0.14836680004373193,,,,test3,001,2025-03-08_23h44.17.656,untitled,2024.2.4,59.71496849703812,2025-03-08 23h44.23.579052 +0500,
,"[0.2, 0.2]",None,12,12,0,,,,,None,1,,,,,,,0,12,12,12,107.13616140000522,,,,,,,,,,,,,,,,,,,,,,,,,,,,,,,,107.12068900000304,107.13616140000522,107.13616140000522,107.13616140000522,108.13625959993806,108.13625959993806,109.13618869998027,109.13618869998027,109.13618869998027,109.1203397999052,None,1,,,,,,test3,001,2025-03-08_23h44.17.656,untitled,2024.2.4,59.71496849703812,2025-03-08 23h44.23.579052 +0500,
,"[0.2, 0]",space,13,13,0,,,,,space,1,0.5379093999508768,0.12217960006091744,,,,,0,13,13,13,109.13618869998027,,,,,,,,,,,,,,,,,,,,,,,,,,,,,,,,109.12074709997978,109.13618869998027,109.13618869998027,109.13618869998027,110.13596959994175,110.13596959994175,111.1360136999283,111.1360136999283,111.1360136999283,111.1201348999748,space,1,0.5379093999508768,0.12217960006091744,,,,test3,001,2025-03-08_23h44.17.656,untitled,2024.2.4,59.71496849703812,2025-03-08 23h44.23.579052 +0500,
,"[0, -0.2]",None,14,14,0,,,,,None,1,,,,,,,0,14,14,14,111.1360136999283,,,,,,,,,,,,,,,,,,,,,,,,,,,,,,,,111.12056810001377,111.1360136999283,111.1360136999283,111.1360136999283,112.13604329992086,112.13604329992086,113.13604489993304,113.13604489993304,113.13604489993304,113.1202445999952,None,1,,,,,,test3,001,2025-03-08_23h44.17.656,untitled,2024.2.4,59.71496849703812,2025-03-08 23h44.23.579052 +0500,
,"[0.2, -0.2]",None,15,15,0,,,,,None,1,,,,,,,0,15,15,15,113.13604489993304,,,,,,,,,,,,,,,,,,,,,,,,,,,,,,,,113.12068369996268,113.13604489993304,113.13604489993304,113.13604489993304,114.13597089995164,114.13597089995164,115.1360004999442,115.1360004999442,115.1360004999442,115.12022619997151,None,1,,,,,,test3,001,2025-03-08_23h44.17.656,untitled,2024.2.4,59.71496849703812,2025-03-08 23h44.23.579052 +0500,
,"[0.2, -0.2]",None,16,16,0,,,,,None,1,,,,,,,0,16,16,16,115.1360004999442,,,,,,,,,,,,,,,,,,,,,,,,,,,,,,,,115.12068559997715,115.1360004999442,115.1360004999442,115.1360004999442,116.13598799996544,116.13598799996544,117.13591720000841,117.13591720000841,117.13591720000841,117.11996629997157,None,1,,,,,,test3,001,2025-03-08_23h44.17.656,untitled,2024.2.4,59.71496849703812,2025-03-08 23h44.23.579052 +0500,
,"[-0.2, 0.2]",None,17,17,0,,,,,None,1,,,,,,,0,17,17,17,117.13591720000841,,,,,,,,,,,,,,,,,,,,,,,,,,,,,,,,117.12035089998972,117.13591720000841,117.13591720000841,117.13591720000841,118.1360180999618,118.1360180999618,119.13577169994824,119.13577169994824,119.13577169994824,119.12016729998868,None,1,,,,,,test3,001,2025-03-08_23h44.17.656,untitled,2024.2.4,59.71496849703812,2025-03-08 23h44.23.579052 +0500,
,"[0.2, 0.2]",None,18,18,0,,,,,None,1,,,,,,,0,18,18,18,119.13577169994824,,,,,,,,,,,,,,,,,,,,,,,,,,,,,,,,119.12053730001207,119.13577169994824,119.13577169994824,119.13577169994824,120.13582939992193,120.13582939992193,121.1358409000095,121.1358409000095,121.1358409000095,121.12003909994382,None,1,,,,,,test3,001,2025-03-08_23h44.17.656,untitled,2024.2.4,59.71496849703812,2025-03-08 23h44.23.579052 +0500,
,"[0, 0]",None,19,19,0,,,,,None,1,,,,,,,0,19,19,19,121.1358409000095,,,,,,,,,,,,,,,,,,,,,,,,,,,,,,,,121.1204414999811,121.1358409000095,121.1358409000095,121.1358409000095,122.13593899994157,122.13593899994157,123.13585759990383,123.13585759990383,123.13585759990383,123.11985329992604,None,1,,,,,,test3,001,2025-03-08_23h44.17.656,untitled,2024.2.4,59.71496849703812,2025-03-08 23h44.23.579052 +0500,
,"[0.2, 0.2]",space,20,20,0,,,,,space,1,0.6555682000471279,0.11752479989081621,,,,,0,20,20,20,123.13585759990383,,,,,,,,,,,,,,,,,,,,,,,,,,,,,,,,123.12027389998548,123.13585759990383,123.13585759990383,123.13585759990383,124.13609889999498,124.13609889999498,125.13564639992546,125.13564639992546,125.13564639992546,125.12013029993977,space,1,0.6555682000471279,0.11752479989081621,,,,test3,001,2025-03-08_23h44.17.656,untitled,2024.2.4,59.71496849703812,2025-03-08 23h44.23.579052 +0500,
,"[-0.2, 0]",None,21,21,0,,,,,None,1,,,,,,,0,21,21,21,125.13564639992546,,,,,,,,,,,,,,,,,,,,,,,,,,,,,,,,125.12054459995124,125.13564639992546,125.13564639992546,125.13564639992546,126.13585560000502,126.13585560000502,127.13583539996762,127.13583539996762,127.13583539996762,127.12081240001135,None,1,,,,,,test3,001,2025-03-08_23h44.17.656,untitled,2024.2.4,59.71496849703812,2025-03-08 23h44.23.579052 +0500,
,"[-0.2, -0.2]",None,22,22,0,,,,,None,1,,,,,,,0,22,22,22,127.13583539996762,,,,,,,,,,,,,,,,,,,,,,,,,,,,,,,,127.12122969992924,127.13583539996762,127.13583539996762,127.13583539996762,128.13583679997828,128.13583679997828,129.1359140999848,129.1359140999848,129.1359140999848,129.12016219994985,None,1,,,,,,test3,001,2025-03-08_23h44.17.656,untitled,2024.2.4,59.71496849703812,2025-03-08 23h44.23.579052 +0500,
,"[-0.2, 0]",space,23,23,0,,,,,space,1,0.5373660000041127,0.13233910000417382,,,,,0,23,23,23,129.1359140999848,,,,,,,,,,,,,,,,,,,,,,,,,,,,,,,,129.12058369989973,129.1359140999848,129.1359140999848,129.1359140999848,130.13582419999875,130.13582419999875,131.13581609993707,131.13581609993707,131.13581609993707,131.12004119995981,space,1,0.5373660000041127,0.13233910000417382,,,,test3,001,2025-03-08_23h44.17.656,untitled,2024.2.4,59.71496849703812,2025-03-08 23h44.23.579052 +0500,
,"[-0.2, 0]",None,24,24,0,,,,,None,1,,,,,,,0,24,24,24,131.13581609993707,,,,,,,,,,,,,,,,,,,,,,,,,,,,,,,,131.12056810001377,131.13581609993707,131.13581609993707,131.13581609993707,132.1358912999276,132.1358912999276,133.13575899996795,133.13575899996795,133.13575899996795,133.12021339999046,None,1,,,,,,test3,001,2025-03-08_23h44.17.656,untitled,2024.2.4,59.71496849703812,2025-03-08 23h44.23.579052 +0500,
,"[0, 0]",None,25,25,0,,,,,None,1,,,,,,,0,25,25,25,133.13575899996795,,,,,,,,,,,,,,,,,,,,,,,,,,,,,,,,133.12068669998553,133.13575899996795,133.13575899996795,133.13575899996795,134.1358943999512,134.1358943999512,135.13563549995888,135.13563549995888,135.13563549995888,135.12013079994358,None,1,,,,,,test3,001,2025-03-08_23h44.17.656,untitled,2024.2.4,59.71496849703812,2025-03-08 23h44.23.579052 +0500,
,"[0, 0.2]",None,26,26,0,,,,,None,1,,,,,,,0,26,26,26,135.13563549995888,,,,,,,,,,,,,,,,,,,,,,,,,,,,,,,,135.1205359000014,135.13563549995888,135.13563549995888,135.13563549995888,136.13571219996084,136.13571219996084,137.13561459991615,137.13561459991615,137.13561459991615,137.11994619993493,None,1,,,,,,test3,001,2025-03-08_23h44.17.656,untitled,2024.2.4,59.71496849703812,2025-03-08 23h44.23.579052 +0500,
,"[0.2, 0]",None,27,27,0,,,,,None,1,,,,,,,0,27,27,27,137.13561459991615,,,,,,,,,,,,,,,,,,,,,,,,,,,,,,,,137.1203220000025,137.13561459991615,137.13561459991615,137.13561459991615,138.1355820999015,138.1355820999015,139.13557209994178,139.13557209994178,139.13557209994178,139.11993990000337,None,1,,,,,,test3,001,2025-03-08_23h44.17.656,untitled,2024.2.4,59.71496849703812,2025-03-08 23h44.23.579052 +0500,
,"[-0.2, -0.2]",None,28,28,0,,,,,None,1,,,,,,,0,28,28,28,139.13557209994178,,,,,,,,,,,,,,,,,,,,,,,,,,,,,,,,139.12029099999927,139.13557209994178,139.13557209994178,139.13557209994178,140.1356307999231,140.1356307999231,141.13551769999322,141.13551769999322,141.13551769999322,141.11985949997324,None,1,,,,,,test3,001,2025-03-08_23h44.17.656,untitled,2024.2.4,59.71496849703812,2025-03-08 23h44.23.579052 +0500,
,"[0.2, 0]",space,29,29,0,,,,,space,1,0.33979350002482533,0.12339610001072288,,,,,0,29,29,29,141.13551769999322,,,,,,,,,,,,,,,,,,,,,,,,,,,,,,,,141.12029389990494,141.13551769999322,141.13551769999322,141.13551769999322,142.13554990000557,142.13554990000557,143.1897860999452,143.1897860999452,143.1897860999452,143.11980799993034,space,1,0.33979350002482533,0.12339610001072288,,,,test3,001,2025-03-08_23h44.17.656,untitled,2024.2.4,59.71496849703812,2025-03-08 23h44.23.579052 +0500,
,,,,,,,,,,,,,,,,,,,,,,,,,,,,,,,,,,,,,,,,,,,,,,,,,,,,,,,,,,,,,,,,,,,,143.18632579990663,143.1897860999452,146.13550390000455,test3,001,2025-03-08_23h44.17.656,untitled,2024.2.4,59.71496849703812,2025-03-08 23h44.23.579052 +0500,
