cue,tar,corrAns,targOrientation,thisN,thisTrialN,thisRepN,resp.keys,resp.corr,resp.rt,resp.duration,trials.thisRepN,trials.thisTrialN,trials.thisN,trials.thisIndex,thisRow.t,notes,instr.started,background.started,startresp.started,inst1textbox.started,instr.stopped,instr2.started,background_2.started,startresp2.started,inst1textbox_2.started,instr2.stopped,fixation.started,background_3.started,image.started,trial_counter_2.started,reminder.started,background_3.stopped,image.stopped,trial_counter_2.stopped,reminder.stopped,fixation.stopped,fixDuration,trial.started,background_4.started,cues.started,fixationshort.started,trial_counter.started,reminder_2.started,cues.stopped,target.started,resp.started,fixationshort.stopped,trial.stopped,trials.resp.keys,trials.resp.corr,trials.resp.rt,trials.resp.duration,feedback.started,background_5.started,text.started,trial_counter_3.started,reminder_3.started,feedback.stopped,background_5.stopped,text.stopped,trial_counter_3.stopped,reminder_3.stopped,End.started,background_6.started,inst1textbox_3.started,participant,session,date,expName,psychopyVersion,frameRate,expStart,
,,,,,,,,,,,,,,,,,0.03053570003248751,0.05438240000512451,0.05438240000512451,0.05438240000512451,7.079949700040743,,,,,,,,,,,,,,,,,,,,,,,,,,,,,,,,,,,,,,,,,,,,,test,001,2025-03-06_23h40.57.502,attention_network_task,2024.2.4,59.943880516485606,2025-03-06 23h41.06.713979 +0500,
,,,,,,,,,,,,,,,,,,,,,,7.083912499947473,7.125918600009754,7.125918600009754,7.125918600009754,7.591006999951787,,,,,,,,,,,,,,,,,,,,,,,,,,,,,,,,,,,,,,,,test,001,2025-03-06_23h40.57.502,attention_network_task,2024.2.4,59.943880516485606,2025-03-06 23h41.06.713979 +0500,
stim/centre.png,stim/neutralRight.png,right,0,0,0,0,right,1,0.593925999943167,None,0,0,0,42,7.677362599992193,,,,,,,,,,,,7.61634279997088,7.677362599992193,7.677362599992193,7.677362599992193,7.677362599992193,8.182438799994998,8.182438799994998,8.182438799994998,8.182438799994998,8.123368000029586,0.45,8.127410599961877,8.182438799994998,8.182438799994998,8.182438799994998,8.182438799994998,8.182438799994998,8.289317199960351,8.622741100029089,8.622741100029089,8.689326499938034,9.223682299954817,right,1,0.593925999943167,None,9.293037900002673,9.348067100043409,9.348067100043409,9.348067100043409,9.348067100043409,10.239525999990292,,,,,,,,test,001,2025-03-06_23h40.57.502,attention_network_task,2024.2.4,59.943880516485606,2025-03-06 23h41.06.713979 +0500,
stim/upper.png,stim/congRight.png,right,0,1,1,0,right,1,0.03433339996263385,None,0,1,1,8,10.256582999951206,,,,,,,,,,,,10.243440599995665,10.256582999951206,10.256582999951206,10.256582999951206,10.256582999951206,10.805989200016484,10.805989200016484,10.805989200016484,10.805989200016484,10.789827200002037,0.55,10.799746899981983,10.805989200016484,10.805989200016484,10.805989200016484,10.805989200016484,10.805989200016484,10.90591830003541,11.289354300010018,11.289354300010018,11.306087599950843,11.340041399933398,right,1,0.03433339996263385,None,11.345929999952205,11.355943199945614,11.355943199945614,11.355943199945614,11.355943199945614,12.339369099936448,12.356617599958554,12.356617599958554,12.356617599958554,12.356617599958554,,,,test,001,2025-03-06_23h40.57.502,attention_network_task,2024.2.4,59.943880516485606,2025-03-06 23h41.06.713979 +0500,
stim/centre.png,stim/neutralLeft.png,left,0,2,2,0,right,0,0.0929675999796018,None,0,2,2,34,12.356617599958554,,,,,,,,,,,,12.343130599940196,12.356617599958554,12.356617599958554,12.356617599958554,12.356617599958554,12.805818699998781,12.805818699998781,12.805818699998781,12.805818699998781,12.789999700034969,0.45,12.793114400003105,12.805818699998781,12.805818699998781,12.805818699998781,12.805818699998781,12.805818699998781,12.905817199964076,13.289247200009413,13.289247200009413,13.305969799985178,13.39002839999739,right,0,0.0929675999796018,None,13.394870099960826,13.405853900010698,13.405853900010698,13.405853900010698,13.405853900010698,14.38984730001539,14.405807500006631,14.405807500006631,14.405807500006631,14.405807500006631,,,,test,001,2025-03-06_23h40.57.502,attention_network_task,2024.2.4,59.943880516485606,2025-03-06 23h41.06.713979 +0500,
stim/blank.png,stim/neutralRight.png,right,0,3,3,0,right,1,0.25009460002183914,None,0,3,3,43,14.405807500006631,,,,,,,,,,,,14.391114099998958,14.405807500006631,14.405807500006631,14.405807500006631,14.405807500006631,14.856612200033851,14.856612200033851,14.856612200033851,14.856612200033851,14.839763100026175,0.45,14.850473599974066,14.856612200033851,14.856612200033851,14.856612200033851,14.856612200033851,14.856612200033851,14.955913999932818,15.339144499972463,15.339144499972463,15.355737200006843,15.590603800024837,right,1,0.25009460002183914,None,15.604473599931225,15.610592899960466,15.610592899960466,15.610592899960466,15.610592899960466,16.60597150004469,,,,,,,,test,001,2025-03-06_23h40.57.502,attention_network_task,2024.2.4,59.943880516485606,2025-03-06 23h41.06.713979 +0500,
stim/both.png,stim/incongLeft.png,left,0,4,4,0,right,0,0.3618248999118805,None,0,4,4,17,16.623143399949186,,,,,,,,,,,,16.6098239000421,16.623143399949186,16.623143399949186,16.623143399949186,16.623143399949186,17.02337039995473,17.02337039995473,17.02337039995473,17.02337039995473,17.006323599955067,0.4,17.0174304000102,17.02337039995473,17.02337039995473,17.02337039995473,17.02337039995473,17.02337039995473,17.122473699972034,17.505801299936138,17.505801299936138,17.52249020000454,17.873631299939007,right,0,0.3618248999118805,None,17.876306799938902,17.8892196000088,17.8892196000088,17.8892196000088,17.8892196000088,18.873037999961525,18.88975119998213,18.88975119998213,18.88975119998213,18.88975119998213,,,,test,001,2025-03-06_23h40.57.502,attention_network_task,2024.2.4,59.943880516485606,2025-03-06 23h41.06.713979 +0500,
stim/both.png,stim/incongLeft.png,right,180,5,5,0,right,1,0.6912747999886051,None,0,5,5,21,18.88975119998213,,,,,,,,,,,,18.876417199964635,18.88975119998213,18.88975119998213,18.88975119998213,18.88975119998213,19.289279300021008,19.289279300021008,19.289279300021008,19.289279300021008,19.273049299954437,0.4,19.27622340002563,19.289279300021008,19.289279300021008,19.289279300021008,19.289279300021008,19.289279300021008,19.388945700018667,19.77251060004346,19.77251060004346,19.789062199997716,20.473460500012152,right,1,0.6912747999886051,None,20.48726149997674,20.497210699948482,20.497210699948482,20.497210699948482,20.497210699948482,21.48932369996328,,,,,,,,test,001,2025-03-06_23h40.57.502,attention_network_task,2024.2.4,59.943880516485606,2025-03-06 23h41.06.713979 +0500,
stim/lower.png,stim/incongRight.png,left,180,6,6,0,left,1,0.6859040999552235,None,0,6,6,28,21.50635829998646,,,,,,,,,,,,21.4927849000087,21.50635829998646,21.50635829998646,21.50635829998646,21.50635829998646,22.05600590002723,22.05600590002723,22.05600590002723,22.05600590002723,22.03968269994948,0.55,22.044096900033765,22.05600590002723,22.05600590002723,22.05600590002723,22.05600590002723,22.05600590002723,22.155886100023054,22.538777600042522,22.538777600042522,22.555523699964397,23.240113700041547,left,1,0.6859040999552235,None,23.245647200034,23.255590899963863,23.255590899963863,23.255590899963863,23.255590899963863,24.23964960000012,24.255739499931224,24.255739499931224,24.255739499931224,24.255739499931224,,,,test,001,2025-03-06_23h40.57.502,attention_network_task,2024.2.4,59.943880516485606,2025-03-06 23h41.06.713979 +0500,
stim/lower.png,stim/incongLeft.png,right,180,7,7,0,right,1,0.6122275999514386,None,0,7,7,20,24.255739499931224,,,,,,,,,,,,24.24102329998277,24.255739499931224,24.255739499931224,24.255739499931224,24.255739499931224,24.755965000018477,24.755965000018477,24.755965000018477,24.755965000018477,24.739709199988283,0.5,24.745478000026196,24.755965000018477,24.755965000018477,24.755965000018477,24.755965000018477,24.755965000018477,24.85598220000975,25.238966000033543,25.238966000033543,25.255608499981463,25.856644599931315,right,1,0.6122275999514386,None,25.85999309993349,25.87246620003134,25.87246620003134,25.87246620003134,25.87246620003134,26.856379200005904,26.872765699983574,26.872765699983574,26.872765699983574,26.872765699983574,,,,test,001,2025-03-06_23h40.57.502,attention_network_task,2024.2.4,59.943880516485606,2025-03-06 23h41.06.713979 +0500,
stim/blank.png,stim/congLeft.png,left,0,8,8,0,left,1,0.5106837999774143,None,0,8,8,3,26.872765699983574,,,,,,,,,,,,26.8627400000114,26.872765699983574,26.872765699983574,26.872765699983574,26.872765699983574,27.27232049999293,27.27232049999293,27.27232049999293,27.27232049999293,27.256305699935183,0.4,27.2603598999558,27.27232049999293,27.27232049999293,27.27232049999293,27.27232049999293,27.27232049999293,27.372395499958657,27.755728099960834,27.755728099960834,27.77233529998921,28.27324829995632,left,1,0.5106837999774143,None,28.276219099992886,28.288965599960648,28.288965599960648,28.288965599960648,28.288965599960648,29.272808899986558,29.289475700003095,29.289475700003095,29.289475700003095,29.289475700003095,,,,test,001,2025-03-06_23h40.57.502,attention_network_task,2024.2.4,59.943880516485606,2025-03-06 23h41.06.713979 +0500,
stim/blank.png,stim/congRight.png,left,180,9,9,0,left,1,0.438445599982515,None,0,9,9,15,29.289475700003095,,,,,,,,,,,,29.276462999987416,29.289475700003095,29.289475700003095,29.289475700003095,29.289475700003095,29.73931450000964,29.73931450000964,29.73931450000964,29.73931450000964,29.722958600032143,0.45,29.72627530002501,29.73931450000964,29.73931450000964,29.73931450000964,29.73931450000964,29.73931450000964,29.838980700005777,30.222351499949582,30.222351499949582,30.238859200035222,30.673238100018352,left,1,0.438445599982515,None,30.676421400043182,30.688933999976143,30.688933999976143,30.688933999976143,30.688933999976143,31.67258849996142,31.68893309996929,31.68893309996929,31.68893309996929,31.68893309996929,,,,test,001,2025-03-06_23h40.57.502,attention_network_task,2024.2.4,59.943880516485606,2025-03-06 23h41.06.713979 +0500,
stim/blank.png,stim/neutralRight.png,left,180,10,10,0,left,1,0.45121269999071956,None,0,10,10,47,31.68893309996929,,,,,,,,,,,,31.67390679998789,31.68893309996929,31.68893309996929,31.68893309996929,31.68893309996929,32.08897859998979,32.08897859998979,32.08897859998979,32.08897859998979,32.072997199953534,0.4,32.07661470002495,32.08897859998979,32.08897859998979,32.08897859998979,32.08897859998979,32.08897859998979,32.1888212999329,32.5723302999977,32.5723302999977,32.58884500002023,33.03985790000297,left,1,0.45121269999071956,None,33.042835199972615,33.05565090000164,33.05565090000164,33.05565090000164,33.05565090000164,34.039520899998024,34.05556210002396,34.05556210002396,34.05556210002396,34.05556210002396,,,,test,001,2025-03-06_23h40.57.502,attention_network_task,2024.2.4,59.943880516485606,2025-03-06 23h41.06.713979 +0500,
stim/centre.png,stim/congRight.png,right,0,11,11,0,right,1,0.4324608000461012,None,0,11,11,10,34.05556210002396,,,,,,,,,,,,34.04071650002152,34.05556210002396,34.05556210002396,34.05556210002396,34.05556210002396,34.45570589997806,34.45570589997806,34.45570589997806,34.45570589997806,34.43963110004552,0.4,34.44269289996009,34.45570589997806,34.45570589997806,34.45570589997806,34.45570589997806,34.45570589997806,34.55557199998293,34.93880869995337,34.93880869995337,34.95558399998117,35.37318590003997,right,1,0.4324608000461012,None,35.37620049994439,35.38880880002398,35.38880880002398,35.38880880002398,35.38880880002398,36.372764299972914,36.38890130002983,36.38890130002983,36.38890130002983,36.38890130002983,,,,test,001,2025-03-06_23h40.57.502,attention_network_task,2024.2.4,59.943880516485606,2025-03-06 23h41.06.713979 +0500,
stim/blank.png,stim/congRight.png,right,0,12,12,0,right,1,0.4350253000156954,None,0,12,12,11,36.38890130002983,,,,,,,,,,,,36.37400379998144,36.38890130002983,36.38890130002983,36.38890130002983,36.38890130002983,36.93884890002664,36.93884890002664,36.93884890002664,36.93884890002664,36.922867899993435,0.55,36.92595599999186,36.93884890002664,36.93884890002664,36.93884890002664,36.93884890002664,36.93884890002664,37.03922090004198,37.42231779999565,37.42231779999565,37.43888289993629,37.87306939996779,right,1,0.4350253000156954,None,37.87660129996948,37.88869369996246,37.88869369996246,37.88869369996246,37.88869369996246,38.8727050999878,38.888780800043605,38.888780800043605,38.888780800043605,38.888780800043605,,,,test,001,2025-03-06_23h40.57.502,attention_network_task,2024.2.4,59.943880516485606,2025-03-06 23h41.06.713979 +0500,
stim/blank.png,stim/neutralLeft.png,left,0,13,13,0,left,1,0.4642157000489533,None,0,13,13,35,38.888780800043605,,,,,,,,,,,,38.873919300036505,38.888780800043605,38.888780800043605,38.888780800043605,38.888780800043605,39.28884699998889,39.28884699998889,39.28884699998889,39.28884699998889,39.27284640003927,0.4,39.27667549997568,39.28884699998889,39.28884699998889,39.28884699998889,39.28884699998889,39.28884699998889,39.38853080000263,39.771878300001845,39.771878300001845,39.78836130001582,40.23938189994078,left,1,0.4642157000489533,None,40.24248399992939,40.25528329994995,40.25528329994995,40.25528329994995,40.25528329994995,41.238868099986576,41.255397200002335,41.255397200002335,41.255397200002335,41.255397200002335,,,,test,001,2025-03-06_23h40.57.502,attention_network_task,2024.2.4,59.943880516485606,2025-03-06 23h41.06.713979 +0500,
stim/centre.png,stim/incongLeft.png,right,180,14,14,0,right,1,0.5826438000658527,None,0,14,14,22,41.255397200002335,,,,,,,,,,,,41.24019879999105,41.255397200002335,41.255397200002335,41.255397200002335,41.255397200002335,41.70543370000087,41.70543370000087,41.70543370000087,41.70543370000087,41.689249499933794,0.45,41.69270539993886,41.70543370000087,41.70543370000087,41.70543370000087,41.70543370000087,41.70543370000087,41.80577550001908,42.18893850001041,42.18893850001041,42.20530749997124,42.773268199991435,right,1,0.5826438000658527,None,42.7762456999626,42.78879559994675,42.78879559994675,42.78879559994675,42.78879559994675,43.77272150001954,43.78875169996172,43.78875169996172,43.78875169996172,43.78875169996172,,,,test,001,2025-03-06_23h40.57.502,attention_network_task,2024.2.4,59.943880516485606,2025-03-06 23h41.06.713979 +0500,
stim/centre.png,stim/incongRight.png,left,180,15,15,0,left,1,0.636324799968861,None,0,15,15,30,43.78875169996172,,,,,,,,,,,,43.77391730004456,43.78875169996172,43.78875169996172,43.78875169996172,43.78875169996172,44.33865659998264,44.33865659998264,44.33865659998264,44.33865659998264,44.3226285999408,0.55,44.32601269998122,44.33865659998264,44.33865659998264,44.33865659998264,44.33865659998264,44.33865659998264,44.438404000015,44.82194769999478,44.82194769999478,44.83858380001038,45.472691699978895,left,1,0.636324799968861,None,45.476129599963315,45.48825469997246,45.48825469997246,45.48825469997246,45.48825469997246,46.47263520001434,46.48865720001049,46.48865720001049,46.48865720001049,46.48865720001049,,,,test,001,2025-03-06_23h40.57.502,attention_network_task,2024.2.4,59.943880516485606,2025-03-06 23h41.06.713979 +0500,
stim/both.png,stim/neutralLeft.png,left,0,16,16,0,left,1,0.491476200055331,None,0,16,16,33,46.48865720001049,,,,,,,,,,,,46.47404360002838,46.48865720001049,46.48865720001049,46.48865720001049,46.48865720001049,46.93885090004187,46.93885090004187,46.93885090004187,46.93885090004187,46.92257349996362,0.45,46.925726199988276,46.93885090004187,46.93885090004187,46.93885090004187,46.93885090004187,46.93885090004187,47.038533599930815,47.42227139999159,47.42227139999159,47.43865010002628,47.923046899959445,left,1,0.491476200055331,None,47.926233700010926,47.938609799952246,47.938609799952246,47.938609799952246,47.938609799952246,48.922614999930374,48.93863129999954,48.93863129999954,48.93863129999954,48.93863129999954,,,,test,001,2025-03-06_23h40.57.502,attention_network_task,2024.2.4,59.943880516485606,2025-03-06 23h41.06.713979 +0500,
stim/upper.png,stim/congLeft.png,left,0,17,17,0,left,1,0.3937588999979198,None,0,17,17,0,48.93863129999954,,,,,,,,,,,,48.92391739995219,48.93863129999954,48.93863129999954,48.93863129999954,48.93863129999954,49.388804899994284,49.388804899994284,49.388804899994284,49.388804899994284,49.37267149996478,0.45,49.37573289999273,49.388804899994284,49.388804899994284,49.388804899994284,49.388804899994284,49.388804899994284,49.48869379993994,49.8719821999548,49.8719821999548,49.88878359994851,50.27283209993038,left,1,0.3937588999979198,None,50.27575439994689,50.28858449996915,50.28858449996915,50.28858449996915,50.28858449996915,51.27269430004526,51.288639900041744,51.288639900041744,51.288639900041744,51.288639900041744,,,,test,001,2025-03-06_23h40.57.502,attention_network_task,2024.2.4,59.943880516485606,2025-03-06 23h41.06.713979 +0500,
stim/both.png,stim/congLeft.png,left,0,18,18,0,left,1,0.705767699982971,None,0,18,18,1,51.288639900041744,,,,,,,,,,,,51.27389489999041,51.288639900041744,51.288639900041744,51.288639900041744,51.288639900041744,51.838693500030786,51.838693500030786,51.838693500030786,51.838693500030786,51.82247410004493,0.55,51.825593199930154,51.838693500030786,51.838693500030786,51.838693500030786,51.838693500030786,51.838693500030786,51.9385392999975,52.322025800007395,52.322025800007395,52.33858360000886,53.039678500033915,left,1,0.705767699982971,None,53.04494049993809,53.05522770003881,53.05522770003881,53.05522770003881,53.05522770003881,54.03919809998479,54.055302800028585,54.055302800028585,54.055302800028585,54.055302800028585,,,,test,001,2025-03-06_23h40.57.502,attention_network_task,2024.2.4,59.943880516485606,2025-03-06 23h41.06.713979 +0500,
stim/blank.png,stim/neutralLeft.png,right,180,19,19,0,right,1,0.4848891000729054,None,0,19,19,39,54.055302800028585,,,,,,,,,,,,54.04049629997462,54.055302800028585,54.055302800028585,54.055302800028585,54.055302800028585,54.4555991999805,54.4555991999805,54.4555991999805,54.4555991999805,54.43956980004441,0.4,54.442760100006126,54.4555991999805,54.4555991999805,54.4555991999805,54.4555991999805,54.4555991999805,54.555228899931535,54.95548909995705,54.95548909995705,54.95548909995705,55.45651899999939,right,1,0.4848891000729054,None,55.45942600001581,55.47213629994076,55.47213629994076,55.47213629994076,55.47213629994076,56.455768699990585,56.47193410003092,56.47193410003092,56.47193410003092,56.47193410003092,,,,test,001,2025-03-06_23h40.57.502,attention_network_task,2024.2.4,59.943880516485606,2025-03-06 23h41.06.713979 +0500,
stim/lower.png,stim/congLeft.png,right,180,20,20,0,right,1,0.5166401999304071,None,0,20,20,4,56.47193410003092,,,,,,,,,,,,56.457027700031176,56.47193410003092,56.47193410003092,56.47193410003092,56.47193410003092,56.872006400022656,56.872006400022656,56.872006400022656,56.872006400022656,56.855772000038996,0.4,56.85894319997169,56.872006400022656,56.872006400022656,56.872006400022656,56.872006400022656,56.872006400022656,56.97180669999216,57.35524099995382,57.35524099995382,57.37194460001774,57.873107700026594,right,1,0.5166401999304071,None,57.87600559997372,57.88857189996634,57.88857189996634,57.88857189996634,57.88857189996634,58.872427899972536,58.888367200037464,58.888367200037464,58.888367200037464,58.888367200037464,,,,test,001,2025-03-06_23h40.57.502,attention_network_task,2024.2.4,59.943880516485606,2025-03-06 23h41.06.713979 +0500,
stim/blank.png,stim/incongRight.png,right,0,21,21,0,right,1,0.7705135999713093,None,0,21,21,27,58.888367200037464,,,,,,,,,,,,58.874074399936944,58.888367200037464,58.888367200037464,58.888367200037464,58.888367200037464,59.43850819999352,59.43850819999352,59.43850819999352,59.43850819999352,59.42235280002933,0.55,59.425784099963494,59.43850819999352,59.43850819999352,59.43850819999352,59.43850819999352,59.43850819999352,59.538510099984705,59.921869899961166,59.921869899961166,59.93835970002692,60.70601520000491,right,1,0.7705135999713093,None,60.70893600001,60.721730099990964,60.721730099990964,60.721730099990964,60.721730099990964,61.705717899953015,61.721845599939115,61.721845599939115,61.721845599939115,61.721845599939115,,,,test,001,2025-03-06_23h40.57.502,attention_network_task,2024.2.4,59.943880516485606,2025-03-06 23h41.06.713979 +0500,
stim/centre.png,stim/congRight.png,left,180,22,22,0,left,1,0.4658502000384033,None,0,22,22,14,61.721845599939115,,,,,,,,,,,,61.7074980000034,61.721845599939115,61.721845599939115,61.721845599939115,61.721845599939115,62.271787200006656,62.271787200006656,62.271787200006656,62.271787200006656,62.2559312999947,0.55,62.259167599957436,62.271787200006656,62.271787200006656,62.271787200006656,62.271787200006656,62.271787200006656,62.37178129993845,62.75546629994642,62.75546629994642,62.77196990000084,63.222905099974014,left,1,0.4658502000384033,None,63.225866699940525,63.23829859995749,63.23829859995749,63.23829859995749,63.23829859995749,64.22234899993055,64.23840819997713,64.23840819997713,64.23840819997713,64.23840819997713,,,,test,001,2025-03-06_23h40.57.502,attention_network_task,2024.2.4,59.943880516485606,2025-03-06 23h41.06.713979 +0500,
stim/both.png,stim/incongRight.png,left,180,23,23,0,left,1,0.626015100046061,None,0,23,23,29,64.23840819997713,,,,,,,,,,,,64.22353960003238,64.23840819997713,64.23840819997713,64.23840819997713,64.23840819997713,64.68847739999183,64.68847739999183,64.68847739999183,64.68847739999183,64.67245890002232,0.45,64.67561299994122,64.68847739999183,64.68847739999183,64.68847739999183,64.68847739999183,64.68847739999183,64.78828949993476,65.1717339999741,65.1717339999741,65.18837510002777,65.80605809995905,left,1,0.626015100046061,None,65.8090328000253,65.82176479999907,65.82176479999907,65.82176479999907,65.82176479999907,66.80588949995581,66.82182139996439,66.82182139996439,66.82182139996439,66.82182139996439,,,,test,001,2025-03-06_23h40.57.502,attention_network_task,2024.2.4,59.943880516485606,2025-03-06 23h41.06.713979 +0500,
stim/centre.png,stim/neutralRight.png,left,180,24,24,0,left,1,0.5413000000407919,None,0,24,24,46,66.82182139996439,,,,,,,,,,,,66.80708189995494,66.82182139996439,66.82182139996439,66.82182139996439,66.82182139996439,67.37168119999114,67.37168119999114,67.37168119999114,67.37168119999114,67.35581740003545,0.55,67.35884250001982,67.37168119999114,67.37168119999114,67.37168119999114,67.37168119999114,67.37168119999114,67.47177129995544,67.85515379998833,67.85515379998833,67.87162240000907,68.40589249995537,left,1,0.5413000000407919,None,68.4088665000163,68.4216468000086,68.4216468000086,68.4216468000086,68.4216468000086,69.40545600000769,69.42175189999398,69.42175189999398,69.42175189999398,69.42175189999398,,,,test,001,2025-03-06_23h40.57.502,attention_network_task,2024.2.4,59.943880516485606,2025-03-06 23h41.06.713979 +0500,
stim/both.png,stim/neutralRight.png,left,180,25,25,0,left,1,0.4982855999842286,None,0,25,25,45,69.42175189999398,,,,,,,,,,,,69.40662749996409,69.42175189999398,69.42175189999398,69.42175189999398,69.42175189999398,69.97181819996331,69.97181819996331,69.97181819996331,69.97181819996331,69.95569019997492,0.55,69.95874749997165,69.97181819996331,69.97181819996331,69.97181819996331,69.97181819996331,69.97181819996331,70.071668199962,70.455088699935,70.455088699935,70.47167969995644,70.95617250003852,left,1,0.4982855999842286,None,70.95906040002592,70.97158739995211,70.97158739995211,70.97158739995211,70.97158739995211,71.95552109996788,71.9715652000159,71.9715652000159,71.9715652000159,71.9715652000159,,,,test,001,2025-03-06_23h40.57.502,attention_network_task,2024.2.4,59.943880516485606,2025-03-06 23h41.06.713979 +0500,
stim/blank.png,stim/incongLeft.png,right,180,26,26,0,right,1,0.4725046999519691,None,0,26,26,23,71.9715652000159,,,,,,,,,,,,71.95711219997611,71.9715652000159,71.9715652000159,71.9715652000159,71.9715652000159,72.3717371999519,72.3717371999519,72.3717371999519,72.3717371999519,72.35558199998923,0.4,72.35875459993258,72.3717371999519,72.3717371999519,72.3717371999519,72.3717371999519,72.3717371999519,72.47149679996073,72.85502080002334,72.85502080002334,72.87153689994011,73.3392338999547,right,1,0.4725046999519691,None,73.34286269999575,73.35506610001903,73.35506610001903,73.35506610001903,73.35506610001903,74.33881069999188,74.35493589995895,74.35493589995895,74.35493589995895,74.35493589995895,,,,test,001,2025-03-06_23h40.57.502,attention_network_task,2024.2.4,59.943880516485606,2025-03-06 23h41.06.713979 +0500,
stim/blank.png,stim/congLeft.png,right,180,27,27,0,right,1,0.3486501999432221,None,0,27,27,7,74.35493589995895,,,,,,,,,,,,74.33998209994752,74.35493589995895,74.35493589995895,74.35493589995895,74.35493589995895,74.90505579998717,74.90505579998717,74.90505579998717,74.90505579998717,74.8887456000084,0.55,74.8919132000301,74.90505579998717,74.90505579998717,74.90505579998717,74.90505579998717,74.90505579998717,75.00489909993485,75.38827150000725,75.38827150000725,75.40502800000831,75.73912439995911,right,1,0.3486501999432221,None,75.74235339998268,75.7549246000126,75.7549246000126,75.7549246000126,75.7549246000126,76.73865539999679,76.75487289996818,76.75487289996818,76.75487289996818,76.75487289996818,,,,test,001,2025-03-06_23h40.57.502,attention_network_task,2024.2.4,59.943880516485606,2025-03-06 23h41.06.713979 +0500,
stim/lower.png,stim/congRight.png,left,180,28,28,0,left,1,0.45676540001295507,None,0,28,28,12,76.75487289996818,,,,,,,,,,,,76.73980079998728,76.75487289996818,76.75487289996818,76.75487289996818,76.75487289996818,77.25493719999213,77.25493719999213,77.25493719999213,77.25493719999213,77.23884929995984,0.5,77.24208789994009,77.25493719999213,77.25493719999213,77.25493719999213,77.25493719999213,77.25493719999213,77.35486199997831,77.73817959998269,77.73817959998269,77.75487519998569,78.2059613999445,left,1,0.45676540001295507,None,78.20928169996478,78.22161949996371,78.22161949996371,78.22161949996371,78.22161949996371,79.20541499997489,79.22155350004323,79.22155350004323,79.22155350004323,79.22155350004323,,,,test,001,2025-03-06_23h40.57.502,attention_network_task,2024.2.4,59.943880516485606,2025-03-06 23h41.06.713979 +0500,
stim/upper.png,stim/neutralLeft.png,left,0,29,29,0,left,1,0.5103988000191748,None,0,29,29,32,79.22155350004323,,,,,,,,,,,,79.20660309994128,79.22155350004323,79.22155350004323,79.22155350004323,79.22155350004323,79.62171949993353,79.62171949993353,79.62171949993353,79.62171949993353,79.60544279997703,0.4,79.60849220003001,79.62171949993353,79.62171949993353,79.62171949993353,79.62171949993353,79.62171949993353,79.72139379999135,80.10489339998458,80.10489339998458,80.12156510003842,80.62235680001322,left,1,0.5103988000191748,None,80.62592399993446,80.63826609996613,80.63826609996613,80.63826609996613,80.63826609996613,81.62203999992926,81.63794259994756,81.63794259994756,81.63794259994756,81.63794259994756,,,,test,001,2025-03-06_23h40.57.502,attention_network_task,2024.2.4,59.943880516485606,2025-03-06 23h41.06.713979 +0500,
stim/blank.png,stim/incongRight.png,left,180,30,30,0,left,1,0.6227694000117481,None,0,30,30,31,81.63794259994756,,,,,,,,,,,,81.62321230000816,81.63794259994756,81.63794259994756,81.63794259994756,81.63794259994756,82.13811349996831,82.13811349996831,82.13811349996831,82.13811349996831,82.12203249998856,0.5,82.12511339993216,82.13811349996831,82.13811349996831,82.13811349996831,82.13811349996831,82.13811349996831,82.23813840001822,82.6214768999489,82.6214768999489,82.63813219999429,83.25594910001382,left,1,0.6227694000117481,None,83.25900660001207,83.27141259994823,83.27141259994823,83.27141259994823,83.27141259994823,84.25552040000912,84.27152299997397,84.27152299997397,84.27152299997397,84.27152299997397,,,,test,001,2025-03-06_23h40.57.502,attention_network_task,2024.2.4,59.943880516485606,2025-03-06 23h41.06.713979 +0500,
stim/centre.png,stim/incongLeft.png,left,0,31,31,0,left,1,0.5826918000821024,None,0,31,31,18,84.27152299997397,,,,,,,,,,,,84.25705040001776,84.27152299997397,84.27152299997397,84.27152299997397,84.27152299997397,84.77147020003758,84.77147020003758,84.77147020003758,84.77147020003758,84.75528249994386,0.5,84.75867679994553,84.77147020003758,84.77147020003758,84.77147020003758,84.77147020003758,84.77147020003758,84.87136720004492,85.25482639996335,85.25482639996335,85.27143490000162,85.83942350000143,left,1,0.5826918000821024,None,85.84384520002641,85.85474260000046,85.85474260000046,85.85474260000046,85.85474260000046,86.83855680003762,86.85477560001891,86.85477560001891,86.85477560001891,86.85477560001891,,,,test,001,2025-03-06_23h40.57.502,attention_network_task,2024.2.4,59.943880516485606,2025-03-06 23h41.06.713979 +0500,
stim/centre.png,stim/congLeft.png,right,180,32,32,0,right,1,0.45730000000912696,None,0,32,32,6,86.85477560001891,,,,,,,,,,,,86.83975749998353,86.85477560001891,86.85477560001891,86.85477560001891,86.85477560001891,87.35474969993811,87.35474969993811,87.35474969993811,87.35474969993811,87.33866969996598,0.5,87.34173869993538,87.35474969993811,87.35474969993811,87.35474969993811,87.35474969993811,87.35474969993811,87.45463329995982,87.83803770004306,87.83803770004306,87.85476479993667,88.30551820003893,right,1,0.45730000000912696,None,88.30889580002986,88.32129879994318,88.32129879994318,88.32129879994318,88.32129879994318,89.30537119996734,89.32140380004421,89.32140380004421,89.32140380004421,89.32140380004421,,,,test,001,2025-03-06_23h40.57.502,attention_network_task,2024.2.4,59.943880516485606,2025-03-06 23h41.06.713979 +0500,
stim/both.png,stim/neutralLeft.png,right,180,33,33,0,right,1,0.12842169997747988,None,0,33,33,37,89.32140380004421,,,,,,,,,,,,89.30656940001063,89.32140380004421,89.32140380004421,89.32140380004421,89.32140380004421,89.82147770002484,89.82147770002484,89.82147770002484,89.82147770002484,89.80538559996057,0.5,89.80847459996585,89.82147770002484,89.82147770002484,89.82147770002484,89.82147770002484,89.82147770002484,89.92124579998199,90.3046561999945,90.3046561999945,90.32134210004006,90.43885349994525,right,1,0.12842169997747988,None,90.44177559996024,90.45461390004493,90.45461390004493,90.45461390004493,90.45461390004493,91.43863690004218,91.4546546000056,91.4546546000056,91.4546546000056,91.4546546000056,,,,test,001,2025-03-06_23h40.57.502,attention_network_task,2024.2.4,59.943880516485606,2025-03-06 23h41.06.713979 +0500,
stim/upper.png,stim/incongRight.png,right,0,34,34,0,left,0,0.04731260007247329,None,0,34,34,24,91.4546546000056,,,,,,,,,,,,91.4402799999807,91.4546546000056,91.4546546000056,91.4546546000056,91.4546546000056,91.9046440999955,91.9046440999955,91.9046440999955,91.9046440999955,91.88857059995644,0.45,91.89165919995867,91.9046440999955,91.9046440999955,91.9046440999955,91.9046440999955,91.9046440999955,92.00457859993912,92.38796459999867,92.38796459999867,92.40462069993373,92.43873910000548,left,0,0.04731260007247329,None,92.44134819996543,92.4545674000401,92.4545674000401,92.4545674000401,92.4545674000401,93.43850459996611,93.45461210003123,93.45461210003123,93.45461210003123,93.45461210003123,,,,test,001,2025-03-06_23h40.57.502,attention_network_task,2024.2.4,59.943880516485606,2025-03-06 23h41.06.713979 +0500,
stim/centre.png,stim/neutralLeft.png,right,180,35,35,0,left,0,0.12680339999496937,None,0,35,35,38,93.45461210003123,,,,,,,,,,,,93.44009339995682,93.45461210003123,93.45461210003123,93.45461210003123,93.45461210003123,93.85468730004504,93.85468730004504,93.85468730004504,93.85468730004504,93.83861470001284,0.4,93.84186249994673,93.85468730004504,93.85468730004504,93.85468730004504,93.85468730004504,93.85468730004504,93.95461370004341,94.33798710000701,94.33798710000701,94.35450220003258,94.47232289996464,left,0,0.12680339999496937,None,94.4736438000109,94.48783540003933,94.48783540003933,94.48783540003933,94.48783540003933,95.47187739994843,95.4879060999956,95.4879060999956,95.4879060999956,95.4879060999956,,,,test,001,2025-03-06_23h40.57.502,attention_network_task,2024.2.4,59.943880516485606,2025-03-06 23h41.06.713979 +0500,
stim/upper.png,stim/incongLeft.png,left,0,36,36,0,left,1,0.09125840000342578,None,0,36,36,16,95.4879060999956,,,,,,,,,,,,95.47331929998472,95.4879060999956,95.4879060999956,95.4879060999956,95.4879060999956,95.98787439998705,95.98787439998705,95.98787439998705,95.98787439998705,95.97204659995623,0.5,95.97514270001557,95.98787439998705,95.98787439998705,95.98787439998705,95.98787439998705,95.98787439998705,96.08783039997797,96.47132589993998,96.47132589993998,96.48764700000174,96.57216340000741,left,1,0.09125840000342578,None,96.57515599997714,96.5879597000312,96.5879597000312,96.5879597000312,96.5879597000312,97.57189220003784,97.58817120001186,97.58817120001186,97.58817120001186,97.58817120001186,,,,test,001,2025-03-06_23h40.57.502,attention_network_task,2024.2.4,59.943880516485606,2025-03-06 23h41.06.713979 +0500,
stim/both.png,stim/congLeft.png,right,180,37,37,0,right,1,0.02983360004145652,None,0,37,37,5,97.58817120001186,,,,,,,,,,,,97.57308150001336,97.58817120001186,97.58817120001186,97.58817120001186,97.58817120001186,97.98794919997454,97.98794919997454,97.98794919997454,97.98794919997454,97.97188099997584,0.4,97.9748976000119,97.98794919997454,97.98794919997454,97.98794919997454,97.98794919997454,97.98794919997454,98.08773200004362,98.4712241999805,98.4712241999805,98.48784930002876,98.50554459996056,right,1,0.02983360004145652,None,98.50856440002099,98.52113629993983,98.52113629993983,98.52113629993983,98.52113629993983,99.50545830000192,99.52109970001038,99.52109970001038,99.52109970001038,99.52109970001038,,,,test,001,2025-03-06_23h40.57.502,attention_network_task,2024.2.4,59.943880516485606,2025-03-06 23h41.06.713979 +0500,
stim/lower.png,stim/neutralLeft.png,right,180,38,38,0,left,0,0.10665059997700155,None,0,38,38,36,99.52109970001038,,,,,,,,,,,,99.50669820001349,99.52109970001038,99.52109970001038,99.52109970001038,99.52109970001038,99.92129149998073,99.92129149998073,99.92129149998073,99.92129149998073,99.90520459995605,0.4,99.90816500002984,99.92129149998073,99.92129149998073,99.92129149998073,99.92129149998073,99.92129149998073,100.02112309995573,100.40452240000013,100.40452240000013,100.42112069996074,100.5220395999495,left,0,0.10665059997700155,None,100.52473099995404,100.53784709994216,100.53784709994216,100.53784709994216,100.53784709994216,101.52201179997064,101.53785069996957,101.53785069996957,101.53785069996957,101.53785069996957,,,,test,001,2025-03-06_23h40.57.502,attention_network_task,2024.2.4,59.943880516485606,2025-03-06 23h41.06.713979 +0500,
stim/both.png,stim/neutralRight.png,right,0,39,39,0,left,0,None,None,0,39,39,41,101.53785069996957,,,,,,,,,,,,101.52319149998948,101.53785069996957,101.53785069996957,101.53785069996957,101.53785069996957,101.9877531999955,101.9877531999955,101.9877531999955,101.9877531999955,101.97188189998269,0.45,101.97494290000759,101.9877531999955,101.9877531999955,101.9877531999955,101.9877531999955,101.9877531999955,102.08781449997332,102.47116489999462,102.47116489999462,102.4878334000241,102.5385479000397,left,0,None,None,102.53981730004307,102.55457119992934,102.55457119992934,102.55457119992934,102.55457119992934,103.53869229997508,103.55435280001257,103.55435280001257,103.55435280001257,103.55435280001257,,,,test,001,2025-03-06_23h40.57.502,attention_network_task,2024.2.4,59.943880516485606,2025-03-06 23h41.06.713979 +0500,
stim/both.png,stim/congRight.png,right,0,40,40,0,left,0,0.08430370001588017,None,0,40,40,9,103.55435280001257,,,,,,,,,,,,103.53989220003132,103.55435280001257,103.55435280001257,103.55435280001257,103.55435280001257,104.05438909993973,104.05438909993973,104.05438909993973,104.05438909993973,104.03842889994849,0.5,104.04147729999386,104.05438909993973,104.05438909993973,104.05438909993973,104.05438909993973,104.05438909993973,104.15454849996604,104.53781370003708,104.53781370003708,104.55450259998906,104.63873000000603,left,0,0.08430370001588017,None,104.64016589999665,104.65446570003405,104.65446570003405,104.65446570003405,104.65446570003405,105.63843119994272,105.65447029995266,105.65447029995266,105.65447029995266,105.65447029995266,,,,test,001,2025-03-06_23h40.57.502,attention_network_task,2024.2.4,59.943880516485606,2025-03-06 23h41.06.713979 +0500,
stim/centre.png,stim/incongRight.png,right,0,41,41,0,left,0,0.03523380006663501,None,0,41,41,26,105.65447029995266,,,,,,,,,,,,105.63961209997069,105.65447029995266,105.65447029995266,105.65447029995266,105.65447029995266,106.20458889997099,106.20458889997099,106.20458889997099,106.20458889997099,106.18840310000814,0.55,106.19176580000203,106.20458889997099,106.20458889997099,106.20458889997099,106.20458889997099,106.20458889997099,106.30446929996833,106.68782759993337,106.68782759993337,106.70439580001403,106.73870200000238,left,0,0.03523380006663501,None,106.73999769997317,106.75424679997377,106.75424679997377,106.75424679997377,106.75424679997377,107.73829499993008,107.75455620000139,107.75455620000139,107.75455620000139,107.75455620000139,,,,test,001,2025-03-06_23h40.57.502,attention_network_task,2024.2.4,59.943880516485606,2025-03-06 23h41.06.713979 +0500,
stim/upper.png,stim/neutralRight.png,right,0,42,42,0,right,1,0.03458770003635436,None,0,42,42,40,107.75455620000139,,,,,,,,,,,,107.7395199999446,107.75455620000139,107.75455620000139,107.75455620000139,107.75455620000139,108.15451399993617,108.15451399993617,108.15451399993617,108.15451399993617,108.13828269997612,0.4,108.1415008000331,108.15451399993617,108.15451399993617,108.15451399993617,108.15451399993617,108.15451399993617,108.25441029993817,108.63761340000201,108.63761340000201,108.65431969997007,108.68849259999115,right,1,0.03458770003635436,None,108.69141390000004,108.70429659995716,108.70429659995716,108.70429659995716,108.70429659995716,109.68812459998298,109.70428119995631,109.70428119995631,109.70428119995631,109.70428119995631,,,,test,001,2025-03-06_23h40.57.502,attention_network_task,2024.2.4,59.943880516485606,2025-03-06 23h41.06.713979 +0500,
stim/both.png,stim/congRight.png,left,180,43,43,0,right,0,0.06989219994284213,None,0,43,43,13,109.70428119995631,,,,,,,,,,,,109.68926799995825,109.70428119995631,109.70428119995631,109.70428119995631,109.70428119995631,110.10438979999162,110.10438979999162,110.10438979999162,110.10438979999162,110.08821179997176,0.4,110.09127370000351,110.10438979999162,110.10438979999162,110.10438979999162,110.10438979999162,110.10438979999162,110.20420149993151,110.5876261999365,110.5876261999365,110.60438849998172,110.67191899998579,right,0,0.06989219994284213,None,110.67455320002045,110.68759250000585,110.68759250000585,110.68759250000585,110.68759250000585,111.67164570000023,111.68764280003961,111.68764280003961,111.68764280003961,111.68764280003961,,,,test,001,2025-03-06_23h40.57.502,attention_network_task,2024.2.4,59.943880516485606,2025-03-06 23h41.06.713979 +0500,
stim/blank.png,stim/incongLeft.png,left,0,44,44,0,left,1,0.1238982001086697,None,0,44,44,19,111.68764280003961,,,,,,,,,,,,111.6728992999997,111.68764280003961,111.68764280003961,111.68764280003961,111.68764280003961,112.08751909993589,112.08751909993589,112.08751909993589,112.08751909993589,112.07156720000785,0.4,112.07470260001719,112.08751909993589,112.08751909993589,112.08751909993589,112.08751909993589,112.08751909993589,112.18766059994232,112.57108100003097,112.57108100003097,112.58748280000873,112.70527169993147,left,1,0.1238982001086697,None,112.70831240003463,112.72097559995018,112.72097559995018,112.72097559995018,112.72097559995018,113.70482740004081,113.72091169992927,113.72091169992927,113.72091169992927,113.72091169992927,,,,test,001,2025-03-06_23h40.57.502,attention_network_task,2024.2.4,59.943880516485606,2025-03-06 23h41.06.713979 +0500,
stim/centre.png,stim/congLeft.png,left,0,45,45,0,right,0,None,None,0,45,45,2,113.72091169992927,,,,,,,,,,,,113.70600629993714,113.72091169992927,113.72091169992927,113.72091169992927,113.72091169992927,114.17104179994203,114.17104179994203,114.17104179994203,114.17104179994203,114.15495570003986,0.45,114.1579756999854,114.17104179994203,114.17104179994203,114.17104179994203,114.17104179994203,114.17104179994203,114.27088109997567,114.6542956000194,114.6542956000194,114.67093250004109,114.72198529995512,right,0,None,None,114.72463389998302,114.73759329994209,114.73759329994209,114.73759329994209,114.73759329994209,115.72153189999517,115.73762299993541,115.73762299993541,115.73762299993541,115.73762299993541,,,,test,001,2025-03-06_23h40.57.502,attention_network_task,2024.2.4,59.943880516485606,2025-03-06 23h41.06.713979 +0500,
stim/both.png,stim/incongRight.png,right,0,46,46,0,left,0,0.06683770008385181,None,0,46,46,25,115.73762299993541,,,,,,,,,,,,115.72278800001368,115.73762299993541,115.73762299993541,115.73762299993541,115.73762299993541,116.2375321999425,116.2375321999425,116.2375321999425,116.2375321999425,116.22151159995701,0.5,116.22458309994545,116.2375321999425,116.2375321999425,116.2375321999425,116.2375321999425,116.2375321999425,116.33767090004403,116.72088429995347,116.72088429995347,116.73750409996137,116.7890585999703,left,0,0.06683770008385181,None,116.79032819997519,116.80441720003728,116.80441720003728,116.80441720003728,116.80441720003728,117.78815359994769,117.8042856999673,117.8042856999673,117.8042856999673,117.8042856999673,,,,test,001,2025-03-06_23h40.57.502,attention_network_task,2024.2.4,59.943880516485606,2025-03-06 23h41.06.713979 +0500,
stim/lower.png,stim/neutralRight.png,left,180,47,47,0,left,1,0.08207460003904998,None,0,47,47,44,117.8042856999673,,,,,,,,,,,,117.78932430001441,117.8042856999673,117.8042856999673,117.8042856999673,117.8042856999673,118.35423599998467,118.35423599998467,118.35423599998467,118.35423599998467,118.33832929993514,0.55,118.34137299994472,118.35423599998467,118.35423599998467,118.35423599998467,118.35423599998467,118.35423599998467,118.45412390003912,118.83752419997472,118.83752419997472,118.85426299995743,118.92181960004382,left,1,0.08207460003904998,None,118.92496119998395,118.93754960002843,118.93754960002843,118.93754960002843,118.93754960002843,119.92148190003354,120.05391649994999,120.05391649994999,120.05391649994999,120.05391649994999,,,,test,001,2025-03-06_23h40.57.502,attention_network_task,2024.2.4,59.943880516485606,2025-03-06 23h41.06.713979 +0500,
,,,,,,,,,,,,,,,,,,,,,,,,,,,,,,,,,,,,,,,,,,,,,,,,,,,,,,,,,,,,,,,120.00346869998612,120.05391649994999,120.05391649994999,,,,,,,,
